File Dati SpectraSuite
++++++++++++++++++++++++++++++++++++
Data: Tue Feb 26 17:28:00 CET 2019
Utente: Studente
Spettro Scuro Presente: Si
Spettro di Riferimento Presente: Si
Numero di Componenti Spettri Campionati: 1
Spettrometri: USB4F01341
Tempo di integrazione (usec): 4000 (USB4F01341)
Media Spettri: 200 (USB4F01341)
Appiattimento Boxcar: 0 (USB4F01341)
Correggi Oscurità Elettronica: No (USB4F01341)
Strobo/Lampada Abilitato: No (USB4F01341)
Correct for Detector Non-linearity: No (USB4F01341)
Correggi Stray Light: No (USB4F01341)
Numero di Pixel nello Spettro Elaborato: 3648
>>>>>Comincia Dati dello Spettro Elaborati<<<<<
0,00	129,027
1,00	129,027
2,00	129,027
3,00	-269,826
4,00	113,468
5,00	-124,414
6,00	-40,660
7,00	-0,485
8,00	94,866
9,00	880,167
10,00	-131,400
11,00	168,149
12,00	-48,754
13,00	80,095
14,00	-214,370
15,00	367,782
16,00	-121,667
17,00	-63,154
18,00	2,900
19,00	12,470
20,00	5,010
21,00	9,998
22,00	5,751
23,00	11,270
24,00	13,970
25,00	7,603
26,00	-2,978
27,00	7,409
28,00	-1,813
29,00	0,344
30,00	5,249
31,00	9,859
32,00	10,808
33,00	3,913
34,00	8,947
35,00	-3,700
36,00	2,962
37,00	2,169
38,00	6,605
39,00	-0,694
40,00	2,026
41,00	7,087
42,00	0,373
43,00	2,801
44,00	8,431
45,00	5,794
46,00	1,993
47,00	9,393
48,00	5,259
49,00	6,487
50,00	6,155
51,00	10,626
52,00	5,283
53,00	0,902
54,00	4,685
55,00	4,510
56,00	3,718
57,00	-0,968
58,00	3,894
59,00	5,400
60,00	6,925
61,00	5,992
62,00	2,799
63,00	3,730
64,00	2,028
65,00	1,356
66,00	4,342
67,00	1,949
68,00	7,946
69,00	6,356
70,00	5,678
71,00	2,509
72,00	8,080
73,00	4,520
74,00	3,198
75,00	4,602
76,00	5,971
77,00	4,426
78,00	8,720
79,00	3,497
80,00	-0,489
81,00	1,068
82,00	0,404
83,00	4,283
84,00	3,887
85,00	1,818
86,00	5,704
87,00	1,824
88,00	4,223
89,00	8,370
90,00	4,109
91,00	6,479
92,00	6,883
93,00	7,138
94,00	3,563
95,00	1,689
96,00	4,230
97,00	4,408
98,00	2,631
99,00	2,763
100,00	5,136
101,00	0,965
102,00	3,637
103,00	0,842
104,00	1,489
105,00	3,192
106,00	0,882
107,00	5,211
108,00	1,554
109,00	2,575
110,00	2,810
111,00	2,947
112,00	2,294
113,00	0,208
114,00	2,247
115,00	2,911
116,00	3,729
117,00	0,061
118,00	1,453
119,00	2,752
120,00	1,900
121,00	2,221
122,00	1,474
123,00	-0,536
124,00	0,927
125,00	4,081
126,00	0,997
127,00	1,371
128,00	2,683
129,00	1,338
130,00	2,335
131,00	2,879
132,00	0,944
133,00	1,763
134,00	0,182
135,00	1,603
136,00	0,246
137,00	1,998
138,00	2,800
139,00	1,288
140,00	4,036
141,00	2,130
142,00	0,528
143,00	1,074
144,00	2,605
145,00	1,308
146,00	0,954
147,00	2,435
148,00	0,454
149,00	2,290
150,00	1,450
151,00	2,285
152,00	-0,823
153,00	0,394
154,00	2,664
155,00	3,871
156,00	2,591
157,00	0,892
158,00	0,995
159,00	0,901
160,00	2,642
161,00	1,886
162,00	1,454
163,00	1,815
164,00	2,713
165,00	1,783
166,00	3,314
167,00	2,204
168,00	1,464
169,00	-0,609
170,00	1,999
171,00	1,226
172,00	-0,741
173,00	1,462
174,00	-0,089
175,00	2,765
176,00	-0,060
177,00	3,347
178,00	-0,574
179,00	3,088
180,00	1,033
181,00	0,725
182,00	2,075
183,00	2,694
184,00	1,037
185,00	1,365
186,00	1,192
187,00	1,597
188,00	1,988
189,00	0,926
190,00	0,802
191,00	1,620
192,00	1,058
193,00	1,959
194,00	1,765
195,00	0,324
196,00	1,561
197,00	0,837
198,00	1,645
199,00	1,729
200,00	1,035
201,00	1,235
202,00	1,420
203,00	1,125
204,00	0,869
205,00	1,136
206,00	0,418
207,00	0,980
208,00	1,175
209,00	1,921
210,00	0,906
211,00	1,169
212,00	-0,072
213,00	1,706
214,00	1,286
215,00	2,115
216,00	1,108
217,00	0,635
218,00	1,269
219,00	0,285
220,00	0,525
221,00	1,077
222,00	0,787
223,00	0,092
224,00	0,464
225,00	-0,012
226,00	0,424
227,00	0,929
228,00	0,884
229,00	0,886
230,00	1,738
231,00	0,899
232,00	0,849
233,00	0,610
234,00	1,879
235,00	1,254
236,00	1,088
237,00	-0,200
238,00	0,627
239,00	0,564
240,00	0,754
241,00	1,045
242,00	0,744
243,00	0,934
244,00	0,096
245,00	0,620
246,00	1,874
247,00	0,900
248,00	1,044
249,00	1,514
250,00	1,848
251,00	1,330
252,00	1,221
253,00	1,020
254,00	0,404
255,00	1,087
256,00	1,321
257,00	0,558
258,00	0,797
259,00	1,000
260,00	0,737
261,00	1,334
262,00	0,689
263,00	0,618
264,00	1,326
265,00	0,494
266,00	0,684
267,00	0,981
268,00	-0,014
269,00	0,680
270,00	-0,005
271,00	-0,118
272,00	-0,257
273,00	0,337
274,00	0,235
275,00	0,162
276,00	0,470
277,00	1,358
278,00	0,829
279,00	0,163
280,00	0,521
281,00	0,966
282,00	0,666
283,00	0,376
284,00	0,178
285,00	0,365
286,00	0,126
287,00	0,497
288,00	0,266
289,00	0,622
290,00	0,444
291,00	1,218
292,00	0,646
293,00	0,780
294,00	0,402
295,00	0,405
296,00	0,540
297,00	0,434
298,00	0,576
299,00	0,833
300,00	-0,000
301,00	0,442
302,00	0,249
303,00	1,156
304,00	0,457
305,00	0,405
306,00	0,500
307,00	1,127
308,00	0,474
309,00	0,619
310,00	0,028
311,00	0,958
312,00	0,447
313,00	0,532
314,00	-0,123
315,00	0,735
316,00	0,620
317,00	0,173
318,00	0,257
319,00	0,386
320,00	0,804
321,00	0,265
322,00	0,574
323,00	0,707
324,00	0,470
325,00	0,492
326,00	0,631
327,00	0,594
328,00	0,460
329,00	0,500
330,00	0,033
331,00	1,090
332,00	0,122
333,00	0,624
334,00	0,429
335,00	0,540
336,00	0,302
337,00	0,339
338,00	0,595
339,00	0,078
340,00	0,131
341,00	0,441
342,00	0,340
343,00	0,779
344,00	0,567
345,00	0,577
346,00	0,390
347,00	0,920
348,00	0,406
349,00	0,498
350,00	0,402
351,00	0,199
352,00	0,219
353,00	0,614
354,00	0,828
355,00	0,694
356,00	0,396
357,00	0,458
358,00	0,358
359,00	0,364
360,00	0,059
361,00	0,371
362,00	0,157
363,00	0,816
364,00	0,427
365,00	0,495
366,00	0,141
367,00	0,664
368,00	0,332
369,00	0,707
370,00	0,573
371,00	0,206
372,00	0,485
373,00	0,728
374,00	0,547
375,00	0,420
376,00	0,129
377,00	0,583
378,00	0,302
379,00	0,405
380,00	0,400
381,00	0,381
382,00	0,458
383,00	-0,046
384,00	0,476
385,00	0,251
386,00	0,323
387,00	0,088
388,00	0,317
389,00	0,775
390,00	0,369
391,00	0,234
392,00	0,386
393,00	0,403
394,00	0,341
395,00	0,529
396,00	0,641
397,00	0,497
398,00	0,375
399,00	0,359
400,00	0,515
401,00	0,371
402,00	0,106
403,00	0,295
404,00	0,250
405,00	0,222
406,00	0,464
407,00	0,382
408,00	0,273
409,00	0,269
410,00	0,420
411,00	0,445
412,00	0,174
413,00	0,234
414,00	0,132
415,00	0,299
416,00	0,158
417,00	0,598
418,00	0,325
419,00	0,479
420,00	0,395
421,00	0,219
422,00	0,119
423,00	0,268
424,00	0,374
425,00	0,308
426,00	0,028
427,00	0,264
428,00	0,010
429,00	-0,106
430,00	0,030
431,00	0,272
432,00	0,160
433,00	0,313
434,00	0,423
435,00	0,200
436,00	0,432
437,00	0,206
438,00	0,186
439,00	0,255
440,00	0,047
441,00	0,083
442,00	0,461
443,00	0,487
444,00	0,120
445,00	0,273
446,00	0,175
447,00	0,119
448,00	0,031
449,00	-0,003
450,00	0,099
451,00	0,123
452,00	-0,003
453,00	0,078
454,00	0,121
455,00	0,118
456,00	0,098
457,00	0,470
458,00	0,250
459,00	0,275
460,00	0,376
461,00	0,167
462,00	0,229
463,00	0,284
464,00	0,203
465,00	0,259
466,00	0,312
467,00	0,195
468,00	0,193
469,00	0,194
470,00	0,234
471,00	0,076
472,00	0,352
473,00	0,099
474,00	0,210
475,00	0,134
476,00	0,245
477,00	0,412
478,00	0,281
479,00	0,091
480,00	0,068
481,00	0,197
482,00	0,207
483,00	0,033
484,00	0,151
485,00	0,158
486,00	0,283
487,00	0,241
488,00	0,231
489,00	-0,073
490,00	0,331
491,00	0,125
492,00	0,311
493,00	0,187
494,00	0,437
495,00	0,343
496,00	0,205
497,00	0,212
498,00	0,270
499,00	0,097
500,00	0,068
501,00	0,170
502,00	0,194
503,00	0,281
504,00	-0,008
505,00	0,007
506,00	0,206
507,00	-0,033
508,00	0,169
509,00	0,265
510,00	0,312
511,00	0,202
512,00	0,138
513,00	0,062
514,00	0,254
515,00	0,235
516,00	0,359
517,00	0,240
518,00	0,070
519,00	0,195
520,00	0,231
521,00	0,039
522,00	0,024
523,00	0,081
524,00	0,104
525,00	0,158
526,00	0,178
527,00	0,190
528,00	0,116
529,00	0,194
530,00	0,231
531,00	-0,020
532,00	0,120
533,00	0,218
534,00	0,143
535,00	0,376
536,00	0,137
537,00	0,224
538,00	0,278
539,00	0,192
540,00	0,183
541,00	0,098
542,00	0,148
543,00	0,273
544,00	0,068
545,00	0,186
546,00	0,194
547,00	0,099
548,00	0,176
549,00	0,272
550,00	0,070
551,00	0,332
552,00	0,185
553,00	0,152
554,00	0,071
555,00	0,109
556,00	0,155
557,00	0,081
558,00	0,058
559,00	0,184
560,00	0,103
561,00	0,109
562,00	0,290
563,00	0,115
564,00	0,223
565,00	0,094
566,00	0,280
567,00	0,186
568,00	0,144
569,00	0,133
570,00	0,105
571,00	0,181
572,00	0,147
573,00	0,184
574,00	0,126
575,00	0,110
576,00	0,130
577,00	0,088
578,00	0,228
579,00	0,142
580,00	0,191
581,00	0,116
582,00	0,296
583,00	0,186
584,00	0,195
585,00	0,164
586,00	0,302
587,00	0,211
588,00	0,165
589,00	0,035
590,00	0,177
591,00	0,135
592,00	0,125
593,00	0,198
594,00	0,091
595,00	0,144
596,00	0,152
597,00	0,111
598,00	0,055
599,00	0,114
600,00	0,078
601,00	0,020
602,00	0,029
603,00	0,038
604,00	0,066
605,00	0,115
606,00	0,111
607,00	0,104
608,00	0,091
609,00	0,170
610,00	0,079
611,00	0,070
612,00	0,020
613,00	0,125
614,00	0,015
615,00	0,110
616,00	0,048
617,00	0,084
618,00	-0,026
619,00	0,153
620,00	0,026
621,00	0,013
622,00	0,053
623,00	0,118
624,00	0,132
625,00	0,116
626,00	0,106
627,00	0,008
628,00	0,111
629,00	0,052
630,00	0,055
631,00	-0,022
632,00	0,058
633,00	0,129
634,00	0,183
635,00	0,078
636,00	0,075
637,00	0,108
638,00	0,005
639,00	0,054
640,00	0,075
641,00	0,102
642,00	0,112
643,00	0,023
644,00	0,064
645,00	0,078
646,00	0,032
647,00	0,043
648,00	0,083
649,00	0,079
650,00	0,044
651,00	0,081
652,00	0,018
653,00	-0,036
654,00	0,044
655,00	0,101
656,00	0,070
657,00	0,090
658,00	0,056
659,00	0,023
660,00	0,069
661,00	0,056
662,00	0,030
663,00	0,046
664,00	0,037
665,00	0,075
666,00	0,073
667,00	0,037
668,00	0,040
669,00	0,046
670,00	0,052
671,00	0,072
672,00	0,076
673,00	0,081
674,00	0,055
675,00	0,061
676,00	0,068
677,00	0,033
678,00	0,058
679,00	0,079
680,00	0,020
681,00	0,037
682,00	0,085
683,00	0,070
684,00	0,052
685,00	0,074
686,00	0,106
687,00	0,053
688,00	0,044
689,00	0,034
690,00	0,020
691,00	0,032
692,00	0,040
693,00	0,061
694,00	0,074
695,00	0,017
696,00	0,072
697,00	0,045
698,00	0,023
699,00	0,034
700,00	0,037
701,00	0,033
702,00	0,050
703,00	0,031
704,00	0,037
705,00	0,033
706,00	0,025
707,00	0,029
708,00	0,035
709,00	0,064
710,00	0,015
711,00	0,067
712,00	0,034
713,00	0,025
714,00	0,029
715,00	0,012
716,00	0,025
717,00	0,053
718,00	0,038
719,00	0,023
720,00	0,046
721,00	0,042
722,00	0,048
723,00	0,062
724,00	0,035
725,00	0,051
726,00	0,024
727,00	0,014
728,00	0,004
729,00	0,009
730,00	0,064
731,00	0,029
732,00	0,024
733,00	0,043
734,00	0,051
735,00	0,031
736,00	0,045
737,00	0,042
738,00	0,023
739,00	0,042
740,00	0,049
741,00	0,036
742,00	0,010
743,00	0,035
744,00	0,047
745,00	0,071
746,00	0,025
747,00	0,053
748,00	0,004
749,00	0,033
750,00	0,015
751,00	0,022
752,00	0,048
753,00	0,071
754,00	0,034
755,00	0,021
756,00	0,031
757,00	0,022
758,00	0,029
759,00	0,013
760,00	0,054
761,00	0,061
762,00	0,030
763,00	0,039
764,00	0,034
765,00	0,028
766,00	0,028
767,00	0,050
768,00	0,047
769,00	0,020
770,00	0,025
771,00	0,043
772,00	0,043
773,00	0,009
774,00	0,023
775,00	0,032
776,00	0,015
777,00	0,033
778,00	0,055
779,00	0,056
780,00	0,056
781,00	0,005
782,00	0,042
783,00	0,035
784,00	0,016
785,00	0,048
786,00	0,020
787,00	0,030
788,00	0,034
789,00	0,017
790,00	0,032
791,00	0,031
792,00	0,014
793,00	0,018
794,00	0,011
795,00	0,043
796,00	0,025
797,00	0,019
798,00	0,025
799,00	0,041
800,00	0,033
801,00	0,056
802,00	0,047
803,00	0,021
804,00	0,022
805,00	0,038
806,00	0,020
807,00	0,051
808,00	0,032
809,00	0,029
810,00	0,018
811,00	0,015
812,00	0,019
813,00	0,044
814,00	0,057
815,00	0,054
816,00	0,043
817,00	0,028
818,00	0,060
819,00	0,049
820,00	0,036
821,00	0,037
822,00	0,008
823,00	0,033
824,00	0,009
825,00	0,045
826,00	0,050
827,00	0,022
828,00	0,030
829,00	0,052
830,00	0,020
831,00	0,032
832,00	0,030
833,00	0,036
834,00	0,021
835,00	0,017
836,00	0,047
837,00	0,017
838,00	0,010
839,00	0,050
840,00	0,028
841,00	0,038
842,00	-0,005
843,00	0,032
844,00	0,025
845,00	0,014
846,00	0,029
847,00	0,041
848,00	0,019
849,00	0,041
850,00	0,058
851,00	0,039
852,00	0,039
853,00	0,033
854,00	0,041
855,00	0,023
856,00	0,031
857,00	0,017
858,00	0,029
859,00	0,046
860,00	0,038
861,00	0,039
862,00	0,036
863,00	0,011
864,00	0,023
865,00	0,014
866,00	0,030
867,00	0,012
868,00	0,025
869,00	0,020
870,00	0,023
871,00	0,022
872,00	0,033
873,00	0,023
874,00	0,030
875,00	0,042
876,00	0,027
877,00	0,010
878,00	0,038
879,00	0,015
880,00	0,037
881,00	0,014
882,00	0,031
883,00	0,031
884,00	0,018
885,00	0,012
886,00	0,030
887,00	0,024
888,00	0,035
889,00	0,059
890,00	0,041
891,00	0,038
892,00	0,023
893,00	0,030
894,00	0,010
895,00	0,037
896,00	0,027
897,00	0,007
898,00	0,059
899,00	0,019
900,00	0,024
901,00	0,030
902,00	0,033
903,00	0,038
904,00	0,047
905,00	0,055
906,00	0,007
907,00	0,022
908,00	0,052
909,00	0,035
910,00	0,054
911,00	0,047
912,00	0,024
913,00	0,030
914,00	0,036
915,00	0,030
916,00	0,033
917,00	0,016
918,00	0,032
919,00	0,034
920,00	0,023
921,00	0,063
922,00	0,046
923,00	0,029
924,00	0,044
925,00	0,023
926,00	0,039
927,00	0,049
928,00	0,035
929,00	0,027
930,00	0,044
931,00	0,056
932,00	0,007
933,00	0,036
934,00	0,013
935,00	0,038
936,00	0,044
937,00	0,052
938,00	0,049
939,00	0,037
940,00	0,034
941,00	0,029
942,00	0,027
943,00	0,032
944,00	0,048
945,00	0,017
946,00	0,050
947,00	0,029
948,00	0,049
949,00	0,043
950,00	0,030
951,00	0,040
952,00	0,065
953,00	0,056
954,00	0,062
955,00	0,062
956,00	0,063
957,00	0,063
958,00	0,059
959,00	0,054
960,00	0,066
961,00	0,058
962,00	0,056
963,00	0,060
964,00	0,077
965,00	0,080
966,00	0,104
967,00	0,076
968,00	0,097
969,00	0,096
970,00	0,118
971,00	0,105
972,00	0,104
973,00	0,107
974,00	0,136
975,00	0,131
976,00	0,170
977,00	0,165
978,00	0,194
979,00	0,226
980,00	0,214
981,00	0,219
982,00	0,242
983,00	0,260
984,00	0,287
985,00	0,307
986,00	0,316
987,00	0,324
988,00	0,377
989,00	0,414
990,00	0,425
991,00	0,491
992,00	0,506
993,00	0,525
994,00	0,576
995,00	0,596
996,00	0,661
997,00	0,694
998,00	0,738
999,00	0,789
1000,00	0,843
1001,00	0,892
1002,00	0,943
1003,00	1,000
1004,00	1,069
1005,00	1,156
1006,00	1,186
1007,00	1,287
1008,00	1,361
1009,00	1,436
1010,00	1,478
1011,00	1,599
1012,00	1,666
1013,00	1,751
1014,00	1,827
1015,00	1,906
1016,00	2,020
1017,00	2,151
1018,00	2,219
1019,00	2,307
1020,00	2,431
1021,00	2,515
1022,00	2,612
1023,00	2,709
1024,00	2,831
1025,00	2,955
1026,00	3,091
1027,00	3,204
1028,00	3,316
1029,00	3,471
1030,00	3,595
1031,00	3,737
1032,00	3,862
1033,00	4,025
1034,00	4,155
1035,00	4,288
1036,00	4,439
1037,00	4,597
1038,00	4,712
1039,00	4,869
1040,00	5,015
1041,00	5,164
1042,00	5,310
1043,00	5,496
1044,00	5,669
1045,00	5,811
1046,00	5,946
1047,00	6,067
1048,00	6,270
1049,00	6,383
1050,00	6,546
1051,00	6,703
1052,00	6,892
1053,00	7,077
1054,00	7,206
1055,00	7,436
1056,00	7,557
1057,00	7,639
1058,00	7,809
1059,00	8,034
1060,00	8,231
1061,00	8,401
1062,00	8,569
1063,00	8,758
1064,00	8,868
1065,00	9,047
1066,00	9,194
1067,00	9,381
1068,00	9,587
1069,00	9,707
1070,00	9,898
1071,00	10,122
1072,00	10,301
1073,00	10,410
1074,00	10,543
1075,00	10,728
1076,00	10,835
1077,00	11,033
1078,00	11,050
1079,00	11,326
1080,00	11,475
1081,00	11,666
1082,00	11,748
1083,00	11,993
1084,00	12,123
1085,00	12,205
1086,00	12,331
1087,00	12,529
1088,00	12,695
1089,00	12,815
1090,00	12,994
1091,00	13,048
1092,00	13,233
1093,00	13,354
1094,00	13,493
1095,00	13,656
1096,00	13,878
1097,00	14,048
1098,00	14,208
1099,00	14,204
1100,00	14,236
1101,00	14,363
1102,00	14,589
1103,00	14,689
1104,00	14,829
1105,00	14,910
1106,00	15,087
1107,00	15,293
1108,00	15,445
1109,00	15,498
1110,00	15,563
1111,00	15,596
1112,00	15,669
1113,00	15,952
1114,00	16,087
1115,00	16,259
1116,00	16,400
1117,00	16,422
1118,00	16,597
1119,00	16,809
1120,00	16,756
1121,00	16,894
1122,00	16,932
1123,00	16,997
1124,00	17,059
1125,00	17,208
1126,00	17,249
1127,00	17,344
1128,00	17,536
1129,00	17,745
1130,00	17,675
1131,00	17,776
1132,00	17,923
1133,00	17,962
1134,00	18,059
1135,00	18,052
1136,00	18,178
1137,00	18,318
1138,00	18,346
1139,00	18,466
1140,00	18,619
1141,00	18,815
1142,00	18,855
1143,00	18,899
1144,00	19,068
1145,00	19,201
1146,00	19,282
1147,00	19,287
1148,00	19,244
1149,00	19,441
1150,00	19,557
1151,00	19,543
1152,00	19,599
1153,00	19,752
1154,00	19,752
1155,00	19,999
1156,00	20,093
1157,00	20,292
1158,00	20,263
1159,00	20,239
1160,00	20,176
1161,00	20,255
1162,00	20,317
1163,00	20,563
1164,00	20,673
1165,00	20,849
1166,00	20,892
1167,00	20,849
1168,00	20,697
1169,00	20,801
1170,00	20,836
1171,00	20,966
1172,00	21,199
1173,00	21,159
1174,00	21,112
1175,00	20,982
1176,00	21,212
1177,00	21,278
1178,00	21,322
1179,00	21,453
1180,00	21,414
1181,00	21,733
1182,00	21,770
1183,00	21,763
1184,00	21,674
1185,00	21,712
1186,00	21,984
1187,00	22,148
1188,00	22,213
1189,00	22,334
1190,00	22,203
1191,00	22,266
1192,00	22,441
1193,00	22,418
1194,00	22,423
1195,00	22,328
1196,00	22,382
1197,00	22,496
1198,00	22,564
1199,00	22,649
1200,00	22,799
1201,00	22,724
1202,00	22,772
1203,00	23,016
1204,00	22,917
1205,00	22,894
1206,00	22,985
1207,00	23,165
1208,00	23,082
1209,00	23,145
1210,00	23,378
1211,00	23,327
1212,00	23,367
1213,00	23,527
1214,00	23,518
1215,00	23,529
1216,00	23,642
1217,00	23,809
1218,00	23,751
1219,00	23,892
1220,00	23,983
1221,00	23,816
1222,00	23,869
1223,00	24,024
1224,00	23,945
1225,00	24,120
1226,00	24,205
1227,00	24,254
1228,00	24,303
1229,00	24,399
1230,00	24,322
1231,00	24,314
1232,00	24,454
1233,00	24,375
1234,00	24,456
1235,00	24,449
1236,00	24,518
1237,00	24,571
1238,00	24,575
1239,00	24,489
1240,00	24,655
1241,00	24,635
1242,00	24,676
1243,00	24,740
1244,00	24,862
1245,00	24,977
1246,00	24,933
1247,00	25,299
1248,00	25,243
1249,00	24,945
1250,00	24,880
1251,00	24,982
1252,00	25,062
1253,00	25,378
1254,00	25,609
1255,00	25,741
1256,00	25,578
1257,00	25,480
1258,00	25,477
1259,00	25,559
1260,00	25,856
1261,00	25,820
1262,00	25,535
1263,00	25,684
1264,00	25,795
1265,00	25,729
1266,00	25,669
1267,00	25,517
1268,00	25,672
1269,00	25,837
1270,00	26,031
1271,00	26,195
1272,00	25,991
1273,00	25,921
1274,00	26,041
1275,00	25,959
1276,00	25,924
1277,00	25,973
1278,00	26,037
1279,00	26,125
1280,00	26,129
1281,00	26,299
1282,00	26,214
1283,00	26,180
1284,00	26,360
1285,00	26,495
1286,00	26,524
1287,00	26,661
1288,00	26,701
1289,00	26,799
1290,00	26,624
1291,00	26,629
1292,00	26,712
1293,00	26,856
1294,00	26,670
1295,00	26,702
1296,00	26,725
1297,00	26,785
1298,00	26,806
1299,00	26,853
1300,00	26,871
1301,00	26,870
1302,00	27,159
1303,00	27,345
1304,00	27,310
1305,00	27,208
1306,00	27,189
1307,00	27,190
1308,00	27,033
1309,00	27,160
1310,00	27,198
1311,00	27,120
1312,00	27,101
1313,00	27,147
1314,00	27,077
1315,00	27,179
1316,00	27,343
1317,00	27,373
1318,00	27,266
1319,00	27,352
1320,00	27,380
1321,00	27,441
1322,00	27,548
1323,00	27,646
1324,00	27,882
1325,00	27,739
1326,00	27,885
1327,00	27,872
1328,00	27,899
1329,00	27,969
1330,00	28,129
1331,00	27,878
1332,00	27,678
1333,00	27,906
1334,00	28,056
1335,00	28,021
1336,00	27,967
1337,00	28,075
1338,00	28,309
1339,00	28,202
1340,00	28,029
1341,00	28,207
1342,00	28,290
1343,00	28,289
1344,00	28,179
1345,00	28,230
1346,00	28,173
1347,00	28,217
1348,00	28,459
1349,00	28,494
1350,00	28,323
1351,00	28,281
1352,00	28,294
1353,00	28,343
1354,00	28,231
1355,00	28,309
1356,00	28,318
1357,00	28,528
1358,00	28,670
1359,00	28,497
1360,00	28,692
1361,00	28,818
1362,00	28,757
1363,00	28,860
1364,00	28,746
1365,00	28,839
1366,00	29,005
1367,00	29,242
1368,00	29,165
1369,00	29,187
1370,00	28,976
1371,00	29,025
1372,00	28,973
1373,00	28,901
1374,00	28,946
1375,00	29,069
1376,00	29,237
1377,00	28,896
1378,00	28,785
1379,00	28,855
1380,00	29,096
1381,00	28,831
1382,00	28,850
1383,00	29,000
1384,00	29,159
1385,00	29,324
1386,00	29,441
1387,00	29,247
1388,00	29,339
1389,00	29,316
1390,00	29,251
1391,00	29,474
1392,00	29,569
1393,00	29,618
1394,00	29,558
1395,00	29,446
1396,00	29,409
1397,00	29,412
1398,00	29,638
1399,00	29,724
1400,00	29,662
1401,00	30,048
1402,00	30,160
1403,00	29,986
1404,00	29,899
1405,00	29,874
1406,00	29,720
1407,00	29,874
1408,00	29,654
1409,00	29,426
1410,00	29,591
1411,00	29,735
1412,00	29,666
1413,00	29,510
1414,00	29,757
1415,00	29,743
1416,00	29,711
1417,00	29,938
1418,00	29,998
1419,00	30,013
1420,00	30,130
1421,00	30,223
1422,00	30,162
1423,00	29,899
1424,00	29,877
1425,00	30,077
1426,00	30,372
1427,00	30,193
1428,00	30,288
1429,00	30,472
1430,00	30,083
1431,00	29,880
1432,00	30,103
1433,00	29,934
1434,00	29,911
1435,00	29,670
1436,00	29,659
1437,00	30,300
1438,00	30,301
1439,00	30,678
1440,00	30,688
1441,00	30,793
1442,00	30,511
1443,00	30,361
1444,00	30,525
1445,00	30,393
1446,00	30,722
1447,00	31,042
1448,00	30,816
1449,00	30,742
1450,00	30,606
1451,00	30,919
1452,00	31,047
1453,00	30,596
1454,00	30,804
1455,00	31,074
1456,00	30,825
1457,00	30,919
1458,00	30,861
1459,00	30,851
1460,00	30,751
1461,00	31,028
1462,00	31,052
1463,00	30,870
1464,00	31,078
1465,00	30,994
1466,00	31,212
1467,00	31,089
1468,00	31,093
1469,00	31,006
1470,00	30,963
1471,00	30,835
1472,00	30,927
1473,00	30,974
1474,00	31,050
1475,00	30,990
1476,00	30,726
1477,00	30,913
1478,00	31,081
1479,00	31,375
1480,00	31,201
1481,00	31,214
1482,00	31,232
1483,00	31,376
1484,00	31,264
1485,00	30,981
1486,00	31,273
1487,00	31,428
1488,00	31,324
1489,00	31,435
1490,00	31,384
1491,00	31,017
1492,00	30,971
1493,00	31,192
1494,00	31,106
1495,00	30,990
1496,00	31,156
1497,00	31,200
1498,00	31,135
1499,00	31,492
1500,00	31,823
1501,00	31,849
1502,00	31,913
1503,00	31,671
1504,00	31,553
1505,00	31,754
1506,00	31,794
1507,00	31,742
1508,00	32,056
1509,00	32,035
1510,00	32,235
1511,00	32,211
1512,00	31,974
1513,00	32,095
1514,00	32,042
1515,00	31,870
1516,00	32,040
1517,00	31,877
1518,00	31,802
1519,00	31,577
1520,00	31,395
1521,00	31,480
1522,00	31,754
1523,00	31,672
1524,00	31,589
1525,00	31,887
1526,00	31,845
1527,00	32,022
1528,00	32,362
1529,00	32,053
1530,00	32,170
1531,00	32,228
1532,00	32,061
1533,00	32,194
1534,00	32,014
1535,00	31,875
1536,00	31,697
1537,00	31,767
1538,00	32,190
1539,00	32,041
1540,00	31,834
1541,00	31,916
1542,00	31,629
1543,00	31,683
1544,00	31,980
1545,00	32,067
1546,00	32,292
1547,00	32,093
1548,00	32,037
1549,00	32,024
1550,00	32,038
1551,00	32,073
1552,00	32,322
1553,00	32,520
1554,00	32,785
1555,00	32,696
1556,00	32,412
1557,00	32,498
1558,00	32,324
1559,00	32,331
1560,00	32,312
1561,00	32,293
1562,00	32,359
1563,00	32,351
1564,00	32,209
1565,00	32,454
1566,00	32,519
1567,00	32,564
1568,00	32,384
1569,00	32,508
1570,00	32,534
1571,00	32,433
1572,00	32,425
1573,00	32,587
1574,00	32,674
1575,00	32,864
1576,00	32,753
1577,00	32,686
1578,00	32,655
1579,00	32,720
1580,00	32,791
1581,00	32,990
1582,00	32,904
1583,00	32,944
1584,00	33,048
1585,00	32,877
1586,00	32,910
1587,00	32,942
1588,00	33,012
1589,00	32,951
1590,00	33,247
1591,00	33,155
1592,00	33,121
1593,00	32,859
1594,00	32,554
1595,00	32,663
1596,00	32,962
1597,00	33,108
1598,00	33,054
1599,00	33,115
1600,00	32,867
1601,00	32,738
1602,00	32,954
1603,00	33,154
1604,00	32,915
1605,00	32,705
1606,00	32,844
1607,00	33,158
1608,00	33,130
1609,00	32,858
1610,00	33,035
1611,00	32,943
1612,00	32,996
1613,00	33,457
1614,00	33,376
1615,00	33,332
1616,00	33,101
1617,00	33,139
1618,00	33,119
1619,00	33,628
1620,00	33,744
1621,00	33,556
1622,00	33,559
1623,00	33,750
1624,00	33,865
1625,00	33,831
1626,00	33,750
1627,00	33,486
1628,00	33,499
1629,00	33,333
1630,00	33,537
1631,00	33,633
1632,00	33,501
1633,00	33,450
1634,00	33,594
1635,00	33,436
1636,00	33,486
1637,00	33,383
1638,00	33,386
1639,00	33,350
1640,00	33,273
1641,00	33,547
1642,00	33,886
1643,00	33,764
1644,00	33,524
1645,00	33,533
1646,00	33,210
1647,00	33,414
1648,00	33,671
1649,00	33,678
1650,00	33,611
1651,00	33,735
1652,00	33,734
1653,00	33,757
1654,00	33,671
1655,00	33,914
1656,00	33,744
1657,00	33,681
1658,00	33,312
1659,00	33,460
1660,00	33,718
1661,00	33,701
1662,00	33,536
1663,00	33,603
1664,00	33,756
1665,00	33,661
1666,00	33,552
1667,00	33,726
1668,00	33,566
1669,00	33,528
1670,00	33,707
1671,00	33,800
1672,00	33,507
1673,00	33,715
1674,00	33,699
1675,00	33,682
1676,00	33,876
1677,00	33,807
1678,00	33,635
1679,00	33,758
1680,00	34,095
1681,00	33,903
1682,00	33,979
1683,00	34,063
1684,00	34,151
1685,00	33,920
1686,00	33,879
1687,00	34,124
1688,00	33,942
1689,00	33,932
1690,00	33,757
1691,00	34,051
1692,00	34,178
1693,00	34,072
1694,00	34,133
1695,00	34,177
1696,00	34,083
1697,00	33,959
1698,00	33,928
1699,00	34,084
1700,00	33,957
1701,00	34,254
1702,00	34,350
1703,00	34,127
1704,00	34,178
1705,00	34,332
1706,00	34,302
1707,00	34,176
1708,00	34,207
1709,00	34,390
1710,00	34,406
1711,00	34,364
1712,00	34,356
1713,00	34,197
1714,00	34,288
1715,00	34,122
1716,00	33,970
1717,00	33,893
1718,00	33,946
1719,00	34,090
1720,00	34,080
1721,00	34,281
1722,00	34,614
1723,00	34,306
1724,00	34,512
1725,00	34,364
1726,00	34,334
1727,00	34,455
1728,00	34,421
1729,00	34,704
1730,00	34,751
1731,00	34,697
1732,00	34,624
1733,00	34,833
1734,00	34,325
1735,00	34,050
1736,00	34,520
1737,00	34,804
1738,00	35,004
1739,00	34,808
1740,00	34,770
1741,00	34,807
1742,00	34,583
1743,00	34,591
1744,00	34,793
1745,00	34,701
1746,00	34,780
1747,00	34,717
1748,00	34,634
1749,00	34,739
1750,00	34,796
1751,00	34,985
1752,00	35,242
1753,00	34,995
1754,00	35,281
1755,00	35,096
1756,00	35,074
1757,00	34,924
1758,00	34,849
1759,00	34,834
1760,00	35,000
1761,00	34,850
1762,00	34,671
1763,00	35,075
1764,00	34,898
1765,00	34,758
1766,00	34,532
1767,00	34,747
1768,00	34,879
1769,00	34,975
1770,00	34,791
1771,00	34,963
1772,00	34,719
1773,00	34,736
1774,00	34,823
1775,00	34,750
1776,00	34,522
1777,00	34,678
1778,00	34,714
1779,00	34,889
1780,00	34,982
1781,00	34,510
1782,00	34,686
1783,00	34,802
1784,00	34,886
1785,00	34,955
1786,00	35,317
1787,00	35,246
1788,00	35,056
1789,00	34,901
1790,00	34,848
1791,00	34,960
1792,00	35,015
1793,00	34,999
1794,00	35,215
1795,00	35,751
1796,00	35,815
1797,00	35,191
1798,00	34,878
1799,00	34,979
1800,00	35,342
1801,00	35,273
1802,00	35,527
1803,00	35,112
1804,00	34,788
1805,00	35,080
1806,00	35,330
1807,00	35,255
1808,00	35,393
1809,00	35,370
1810,00	35,331
1811,00	35,248
1812,00	35,782
1813,00	35,294
1814,00	35,379
1815,00	35,465
1816,00	35,551
1817,00	35,260
1818,00	35,159
1819,00	35,379
1820,00	35,357
1821,00	35,521
1822,00	35,337
1823,00	35,195
1824,00	35,215
1825,00	35,178
1826,00	35,379
1827,00	35,678
1828,00	35,835
1829,00	35,902
1830,00	35,552
1831,00	35,790
1832,00	35,855
1833,00	35,766
1834,00	35,691
1835,00	35,714
1836,00	35,459
1837,00	35,855
1838,00	35,727
1839,00	35,705
1840,00	35,849
1841,00	35,974
1842,00	35,953
1843,00	35,675
1844,00	35,788
1845,00	35,594
1846,00	35,819
1847,00	35,816
1848,00	36,004
1849,00	36,072
1850,00	36,089
1851,00	35,823
1852,00	35,901
1853,00	35,774
1854,00	35,363
1855,00	35,719
1856,00	35,551
1857,00	35,757
1858,00	36,142
1859,00	35,929
1860,00	35,871
1861,00	35,833
1862,00	36,001
1863,00	35,917
1864,00	35,696
1865,00	35,910
1866,00	36,088
1867,00	36,187
1868,00	35,900
1869,00	35,825
1870,00	35,884
1871,00	36,317
1872,00	36,013
1873,00	35,773
1874,00	35,773
1875,00	35,841
1876,00	35,817
1877,00	36,022
1878,00	35,865
1879,00	35,641
1880,00	35,509
1881,00	35,529
1882,00	35,967
1883,00	36,307
1884,00	36,494
1885,00	36,374
1886,00	36,456
1887,00	36,322
1888,00	36,524
1889,00	36,661
1890,00	36,142
1891,00	36,115
1892,00	35,953
1893,00	35,851
1894,00	35,690
1895,00	35,524
1896,00	35,897
1897,00	35,664
1898,00	36,132
1899,00	36,509
1900,00	36,221
1901,00	36,200
1902,00	36,131
1903,00	36,436
1904,00	36,447
1905,00	36,278
1906,00	36,072
1907,00	35,701
1908,00	35,547
1909,00	35,799
1910,00	36,068
1911,00	36,452
1912,00	36,576
1913,00	36,197
1914,00	36,062
1915,00	36,213
1916,00	36,005
1917,00	36,172
1918,00	36,393
1919,00	36,072
1920,00	36,326
1921,00	36,129
1922,00	36,149
1923,00	36,431
1924,00	36,513
1925,00	36,747
1926,00	36,548
1927,00	36,836
1928,00	36,475
1929,00	36,553
1930,00	36,291
1931,00	36,002
1932,00	36,084
1933,00	35,889
1934,00	36,025
1935,00	36,119
1936,00	35,971
1937,00	36,402
1938,00	36,493
1939,00	36,123
1940,00	35,764
1941,00	35,824
1942,00	35,917
1943,00	36,148
1944,00	36,025
1945,00	36,074
1946,00	35,462
1947,00	35,610
1948,00	35,828
1949,00	35,754
1950,00	36,052
1951,00	36,353
1952,00	36,447
1953,00	36,455
1954,00	36,373
1955,00	36,099
1956,00	35,883
1957,00	35,670
1958,00	36,263
1959,00	36,438
1960,00	36,391
1961,00	36,627
1962,00	36,671
1963,00	36,404
1964,00	36,659
1965,00	36,714
1966,00	36,562
1967,00	35,848
1968,00	36,085
1969,00	36,241
1970,00	36,485
1971,00	36,464
1972,00	36,455
1973,00	36,062
1974,00	36,015
1975,00	36,215
1976,00	35,956
1977,00	36,164
1978,00	36,647
1979,00	36,577
1980,00	36,286
1981,00	36,458
1982,00	36,499
1983,00	36,595
1984,00	36,569
1985,00	36,218
1986,00	36,215
1987,00	36,229
1988,00	36,445
1989,00	36,459
1990,00	36,608
1991,00	36,503
1992,00	36,527
1993,00	36,276
1994,00	36,443
1995,00	36,199
1996,00	36,480
1997,00	36,731
1998,00	36,444
1999,00	36,694
2000,00	36,463
2001,00	36,429
2002,00	36,281
2003,00	36,381
2004,00	36,626
2005,00	36,927
2006,00	37,002
2007,00	36,555
2008,00	36,174
2009,00	36,143
2010,00	36,430
2011,00	36,520
2012,00	36,569
2013,00	36,543
2014,00	36,613
2015,00	36,912
2016,00	36,932
2017,00	36,342
2018,00	36,551
2019,00	36,646
2020,00	36,561
2021,00	36,598
2022,00	36,549
2023,00	36,537
2024,00	36,427
2025,00	36,353
2026,00	36,385
2027,00	36,139
2028,00	36,297
2029,00	36,029
2030,00	35,920
2031,00	36,093
2032,00	36,698
2033,00	36,645
2034,00	36,756
2035,00	36,592
2036,00	36,314
2037,00	36,564
2038,00	36,386
2039,00	36,015
2040,00	36,500
2041,00	36,471
2042,00	36,187
2043,00	36,132
2044,00	36,510
2045,00	37,026
2046,00	37,036
2047,00	36,486
2048,00	36,365
2049,00	36,384
2050,00	36,481
2051,00	36,855
2052,00	37,043
2053,00	36,747
2054,00	36,639
2055,00	36,770
2056,00	36,952
2057,00	36,989
2058,00	36,755
2059,00	36,699
2060,00	36,935
2061,00	36,900
2062,00	36,848
2063,00	36,828
2064,00	36,648
2065,00	36,679
2066,00	36,547
2067,00	36,537
2068,00	36,290
2069,00	36,590
2070,00	37,098
2071,00	36,917
2072,00	36,800
2073,00	36,810
2074,00	37,160
2075,00	36,570
2076,00	36,371
2077,00	36,331
2078,00	35,960
2079,00	36,259
2080,00	36,192
2081,00	36,601
2082,00	37,301
2083,00	37,311
2084,00	37,251
2085,00	36,608
2086,00	36,657
2087,00	36,753
2088,00	36,550
2089,00	36,547
2090,00	36,983
2091,00	37,083
2092,00	36,813
2093,00	36,918
2094,00	36,892
2095,00	37,146
2096,00	36,691
2097,00	37,084
2098,00	37,103
2099,00	36,841
2100,00	36,879
2101,00	36,672
2102,00	36,990
2103,00	36,930
2104,00	36,721
2105,00	36,856
2106,00	36,792
2107,00	36,633
2108,00	36,599
2109,00	36,951
2110,00	37,025
2111,00	36,759
2112,00	36,782
2113,00	37,210
2114,00	37,045
2115,00	36,969
2116,00	37,056
2117,00	37,075
2118,00	37,412
2119,00	37,198
2120,00	37,411
2121,00	37,436
2122,00	37,385
2123,00	37,148
2124,00	36,978
2125,00	36,657
2126,00	36,633
2127,00	36,633
2128,00	36,922
2129,00	37,226
2130,00	36,927
2131,00	36,623
2132,00	36,503
2133,00	36,928
2134,00	36,910
2135,00	36,431
2136,00	36,410
2137,00	36,810
2138,00	36,698
2139,00	37,259
2140,00	37,355
2141,00	37,348
2142,00	36,988
2143,00	37,155
2144,00	37,187
2145,00	37,323
2146,00	36,888
2147,00	36,633
2148,00	36,772
2149,00	36,407
2150,00	36,696
2151,00	36,979
2152,00	37,061
2153,00	36,670
2154,00	37,207
2155,00	37,128
2156,00	37,470
2157,00	37,062
2158,00	36,856
2159,00	37,289
2160,00	37,138
2161,00	36,964
2162,00	37,439
2163,00	37,358
2164,00	37,546
2165,00	37,343
2166,00	37,421
2167,00	37,163
2168,00	37,528
2169,00	37,744
2170,00	37,959
2171,00	37,897
2172,00	37,246
2173,00	37,644
2174,00	37,583
2175,00	37,424
2176,00	37,227
2177,00	36,911
2178,00	37,443
2179,00	37,805
2180,00	37,804
2181,00	37,571
2182,00	37,235
2183,00	37,151
2184,00	37,200
2185,00	37,789
2186,00	37,625
2187,00	37,744
2188,00	37,518
2189,00	37,503
2190,00	37,433
2191,00	37,508
2192,00	37,124
2193,00	37,025
2194,00	37,283
2195,00	37,575
2196,00	37,779
2197,00	37,379
2198,00	37,627
2199,00	37,953
2200,00	38,006
2201,00	37,524
2202,00	37,251
2203,00	37,340
2204,00	36,866
2205,00	37,217
2206,00	37,159
2207,00	37,419
2208,00	37,588
2209,00	37,702
2210,00	37,582
2211,00	37,358
2212,00	37,894
2213,00	37,723
2214,00	38,186
2215,00	37,899
2216,00	38,032
2217,00	38,072
2218,00	38,078
2219,00	38,207
2220,00	38,084
2221,00	37,980
2222,00	38,347
2223,00	38,055
2224,00	37,809
2225,00	38,199
2226,00	37,994
2227,00	37,853
2228,00	37,922
2229,00	37,835
2230,00	37,965
2231,00	38,174
2232,00	38,135
2233,00	38,522
2234,00	38,370
2235,00	38,094
2236,00	38,370
2237,00	38,179
2238,00	38,154
2239,00	38,001
2240,00	38,380
2241,00	38,660
2242,00	38,661
2243,00	38,747
2244,00	38,574
2245,00	37,999
2246,00	37,884
2247,00	37,708
2248,00	37,886
2249,00	37,981
2250,00	38,263
2251,00	38,287
2252,00	37,982
2253,00	38,225
2254,00	38,306
2255,00	38,300
2256,00	38,317
2257,00	37,870
2258,00	38,262
2259,00	38,063
2260,00	37,866
2261,00	38,307
2262,00	38,568
2263,00	38,819
2264,00	38,827
2265,00	39,119
2266,00	38,772
2267,00	38,647
2268,00	38,676
2269,00	38,250
2270,00	38,052
2271,00	38,164
2272,00	38,478
2273,00	38,937
2274,00	38,491
2275,00	38,696
2276,00	38,719
2277,00	38,443
2278,00	38,300
2279,00	38,256
2280,00	37,882
2281,00	38,363
2282,00	38,593
2283,00	38,896
2284,00	39,210
2285,00	39,342
2286,00	39,138
2287,00	39,088
2288,00	39,153
2289,00	38,875
2290,00	38,892
2291,00	38,675
2292,00	38,826
2293,00	38,601
2294,00	38,423
2295,00	38,658
2296,00	38,448
2297,00	38,488
2298,00	38,554
2299,00	38,604
2300,00	38,451
2301,00	38,442
2302,00	38,647
2303,00	39,071
2304,00	39,076
2305,00	38,904
2306,00	39,242
2307,00	39,519
2308,00	39,028
2309,00	39,492
2310,00	39,395
2311,00	39,357
2312,00	39,300
2313,00	39,017
2314,00	38,996
2315,00	39,546
2316,00	39,348
2317,00	39,712
2318,00	39,192
2319,00	39,139
2320,00	39,270
2321,00	39,110
2322,00	38,796
2323,00	38,599
2324,00	39,200
2325,00	39,076
2326,00	39,169
2327,00	39,036
2328,00	39,275
2329,00	38,609
2330,00	39,083
2331,00	39,124
2332,00	38,731
2333,00	39,283
2334,00	39,086
2335,00	38,869
2336,00	39,026
2337,00	39,442
2338,00	39,243
2339,00	39,347
2340,00	39,610
2341,00	39,957
2342,00	39,773
2343,00	39,861
2344,00	39,678
2345,00	39,752
2346,00	39,960
2347,00	39,626
2348,00	39,524
2349,00	39,353
2350,00	39,210
2351,00	39,589
2352,00	39,716
2353,00	39,900
2354,00	39,553
2355,00	39,490
2356,00	39,397
2357,00	39,130
2358,00	38,836
2359,00	39,196
2360,00	39,219
2361,00	39,562
2362,00	39,188
2363,00	39,426
2364,00	39,675
2365,00	40,052
2366,00	39,356
2367,00	39,636
2368,00	39,348
2369,00	39,549
2370,00	40,159
2371,00	40,160
2372,00	40,141
2373,00	39,737
2374,00	39,884
2375,00	39,829
2376,00	39,582
2377,00	39,247
2378,00	39,353
2379,00	39,488
2380,00	39,478
2381,00	39,658
2382,00	40,208
2383,00	39,972
2384,00	40,021
2385,00	40,268
2386,00	40,401
2387,00	40,469
2388,00	39,914
2389,00	39,965
2390,00	39,787
2391,00	39,505
2392,00	39,917
2393,00	40,021
2394,00	39,887
2395,00	39,753
2396,00	39,516
2397,00	39,806
2398,00	40,082
2399,00	39,784
2400,00	39,780
2401,00	39,963
2402,00	39,779
2403,00	40,356
2404,00	40,298
2405,00	40,667
2406,00	40,188
2407,00	40,688
2408,00	40,173
2409,00	39,783
2410,00	40,101
2411,00	40,497
2412,00	40,422
2413,00	40,729
2414,00	40,608
2415,00	40,393
2416,00	40,757
2417,00	40,798
2418,00	40,154
2419,00	40,175
2420,00	40,485
2421,00	40,526
2422,00	40,476
2423,00	40,882
2424,00	41,183
2425,00	41,334
2426,00	41,016
2427,00	40,768
2428,00	40,638
2429,00	40,779
2430,00	40,599
2431,00	40,459
2432,00	40,629
2433,00	41,038
2434,00	40,824
2435,00	40,469
2436,00	40,186
2437,00	39,737
2438,00	40,383
2439,00	40,350
2440,00	40,550
2441,00	40,848
2442,00	40,638
2443,00	40,104
2444,00	40,467
2445,00	40,794
2446,00	40,812
2447,00	40,812
2448,00	40,994
2449,00	40,878
2450,00	40,646
2451,00	41,121
2452,00	41,299
2453,00	41,799
2454,00	42,002
2455,00	41,548
2456,00	41,297
2457,00	40,877
2458,00	40,417
2459,00	40,589
2460,00	41,122
2461,00	40,956
2462,00	41,156
2463,00	41,068
2464,00	41,205
2465,00	40,639
2466,00	40,780
2467,00	40,584
2468,00	40,806
2469,00	40,622
2470,00	40,516
2471,00	40,135
2472,00	39,750
2473,00	40,003
2474,00	40,477
2475,00	39,938
2476,00	40,153
2477,00	40,508
2478,00	40,739
2479,00	41,175
2480,00	41,061
2481,00	40,919
2482,00	41,353
2483,00	40,885
2484,00	40,882
2485,00	41,211
2486,00	41,430
2487,00	40,996
2488,00	41,189
2489,00	40,550
2490,00	41,116
2491,00	41,338
2492,00	41,506
2493,00	41,256
2494,00	41,251
2495,00	41,350
2496,00	40,821
2497,00	40,920
2498,00	40,924
2499,00	40,661
2500,00	40,727
2501,00	40,252
2502,00	40,517
2503,00	40,178
2504,00	40,267
2505,00	40,632
2506,00	40,573
2507,00	40,739
2508,00	41,257
2509,00	41,832
2510,00	41,463
2511,00	41,235
2512,00	41,841
2513,00	41,949
2514,00	42,007
2515,00	41,575
2516,00	41,751
2517,00	41,918
2518,00	42,474
2519,00	42,011
2520,00	42,073
2521,00	41,738
2522,00	41,476
2523,00	41,349
2524,00	41,692
2525,00	41,607
2526,00	41,592
2527,00	41,444
2528,00	40,640
2529,00	41,077
2530,00	40,927
2531,00	40,795
2532,00	41,036
2533,00	40,812
2534,00	41,560
2535,00	41,030
2536,00	41,235
2537,00	41,241
2538,00	41,238
2539,00	41,643
2540,00	41,177
2541,00	41,144
2542,00	41,304
2543,00	41,172
2544,00	40,851
2545,00	40,805
2546,00	41,544
2547,00	41,713
2548,00	41,820
2549,00	41,525
2550,00	41,679
2551,00	41,735
2552,00	41,150
2553,00	41,221
2554,00	40,858
2555,00	41,325
2556,00	41,846
2557,00	41,579
2558,00	41,440
2559,00	41,891
2560,00	41,339
2561,00	41,851
2562,00	40,817
2563,00	41,565
2564,00	42,398
2565,00	42,291
2566,00	41,774
2567,00	41,453
2568,00	40,369
2569,00	41,091
2570,00	41,840
2571,00	42,311
2572,00	41,421
2573,00	41,296
2574,00	41,666
2575,00	41,664
2576,00	41,334
2577,00	41,463
2578,00	41,951
2579,00	41,664
2580,00	41,324
2581,00	41,380
2582,00	41,582
2583,00	42,224
2584,00	41,676
2585,00	42,239
2586,00	42,062
2587,00	42,006
2588,00	41,644
2589,00	41,740
2590,00	42,257
2591,00	41,711
2592,00	41,340
2593,00	40,922
2594,00	40,923
2595,00	41,487
2596,00	41,372
2597,00	41,462
2598,00	41,493
2599,00	41,965
2600,00	41,757
2601,00	41,560
2602,00	41,647
2603,00	41,187
2604,00	40,928
2605,00	40,896
2606,00	41,519
2607,00	41,956
2608,00	42,076
2609,00	41,792
2610,00	41,429
2611,00	41,788
2612,00	41,650
2613,00	41,694
2614,00	42,297
2615,00	41,819
2616,00	41,421
2617,00	41,132
2618,00	42,038
2619,00	42,645
2620,00	42,667
2621,00	42,136
2622,00	42,484
2623,00	41,667
2624,00	40,885
2625,00	41,270
2626,00	41,519
2627,00	42,052
2628,00	41,955
2629,00	41,921
2630,00	42,211
2631,00	41,752
2632,00	41,511
2633,00	41,684
2634,00	42,042
2635,00	41,889
2636,00	41,342
2637,00	41,232
2638,00	41,529
2639,00	41,404
2640,00	41,763
2641,00	41,874
2642,00	42,424
2643,00	41,983
2644,00	42,099
2645,00	42,525
2646,00	41,746
2647,00	41,352
2648,00	42,067
2649,00	41,987
2650,00	41,593
2651,00	41,858
2652,00	42,296
2653,00	42,272
2654,00	42,107
2655,00	41,853
2656,00	41,476
2657,00	40,948
2658,00	41,305
2659,00	41,721
2660,00	42,404
2661,00	42,275
2662,00	42,414
2663,00	42,240
2664,00	42,039
2665,00	42,344
2666,00	42,620
2667,00	42,473
2668,00	41,899
2669,00	42,304
2670,00	42,576
2671,00	41,543
2672,00	41,511
2673,00	42,301
2674,00	42,171
2675,00	42,438
2676,00	42,827
2677,00	42,760
2678,00	42,834
2679,00	42,195
2680,00	42,190
2681,00	42,484
2682,00	42,196
2683,00	42,175
2684,00	42,096
2685,00	42,343
2686,00	41,762
2687,00	41,908
2688,00	42,040
2689,00	42,015
2690,00	41,498
2691,00	41,526
2692,00	41,889
2693,00	42,288
2694,00	42,912
2695,00	42,639
2696,00	41,915
2697,00	41,763
2698,00	41,149
2699,00	41,618
2700,00	41,902
2701,00	40,873
2702,00	40,893
2703,00	41,235
2704,00	41,285
2705,00	41,014
2706,00	41,688
2707,00	42,007
2708,00	41,850
2709,00	41,678
2710,00	41,811
2711,00	40,929
2712,00	41,484
2713,00	42,066
2714,00	41,520
2715,00	40,964
2716,00	41,498
2717,00	41,751
2718,00	40,894
2719,00	40,892
2720,00	41,529
2721,00	42,724
2722,00	42,496
2723,00	42,819
2724,00	42,970
2725,00	42,705
2726,00	42,975
2727,00	42,739
2728,00	42,812
2729,00	43,007
2730,00	42,380
2731,00	42,278
2732,00	41,697
2733,00	42,503
2734,00	42,401
2735,00	42,129
2736,00	42,312
2737,00	42,420
2738,00	43,026
2739,00	42,859
2740,00	42,823
2741,00	42,450
2742,00	42,963
2743,00	42,587
2744,00	41,912
2745,00	42,111
2746,00	41,358
2747,00	41,904
2748,00	41,379
2749,00	41,537
2750,00	41,655
2751,00	41,621
2752,00	41,796
2753,00	42,203
2754,00	42,498
2755,00	42,773
2756,00	42,707
2757,00	43,111
2758,00	42,329
2759,00	43,274
2760,00	42,381
2761,00	41,460
2762,00	41,100
2763,00	42,168
2764,00	41,461
2765,00	41,571
2766,00	41,469
2767,00	41,882
2768,00	42,190
2769,00	42,041
2770,00	41,783
2771,00	41,808
2772,00	42,703
2773,00	42,266
2774,00	42,593
2775,00	41,936
2776,00	41,587
2777,00	42,245
2778,00	42,050
2779,00	41,457
2780,00	41,443
2781,00	41,461
2782,00	42,299
2783,00	42,128
2784,00	41,736
2785,00	41,309
2786,00	41,433
2787,00	41,352
2788,00	41,340
2789,00	41,517
2790,00	41,565
2791,00	41,606
2792,00	41,294
2793,00	40,819
2794,00	41,645
2795,00	41,335
2796,00	41,475
2797,00	41,189
2798,00	40,512
2799,00	40,114
2800,00	40,685
2801,00	40,843
2802,00	41,184
2803,00	41,544
2804,00	42,053
2805,00	41,966
2806,00	43,124
2807,00	43,142
2808,00	42,272
2809,00	42,614
2810,00	42,197
2811,00	41,613
2812,00	41,924
2813,00	41,342
2814,00	40,517
2815,00	41,004
2816,00	40,706
2817,00	41,076
2818,00	41,281
2819,00	41,328
2820,00	40,985
2821,00	41,332
2822,00	41,666
2823,00	41,433
2824,00	41,380
2825,00	41,552
2826,00	41,762
2827,00	42,219
2828,00	42,458
2829,00	42,103
2830,00	42,249
2831,00	42,218
2832,00	42,490
2833,00	42,887
2834,00	42,397
2835,00	42,343
2836,00	42,772
2837,00	41,051
2838,00	41,678
2839,00	42,249
2840,00	42,612
2841,00	41,707
2842,00	42,062
2843,00	41,729
2844,00	41,315
2845,00	42,133
2846,00	41,653
2847,00	41,574
2848,00	41,760
2849,00	41,317
2850,00	41,366
2851,00	41,407
2852,00	40,929
2853,00	40,481
2854,00	41,404
2855,00	40,945
2856,00	41,408
2857,00	41,195
2858,00	40,439
2859,00	40,318
2860,00	41,726
2861,00	41,346
2862,00	41,268
2863,00	41,218
2864,00	42,488
2865,00	42,332
2866,00	41,318
2867,00	42,091
2868,00	42,354
2869,00	41,852
2870,00	41,882
2871,00	41,326
2872,00	41,235
2873,00	41,310
2874,00	42,279
2875,00	41,385
2876,00	41,951
2877,00	41,568
2878,00	41,388
2879,00	41,637
2880,00	42,151
2881,00	42,349
2882,00	42,453
2883,00	42,332
2884,00	42,441
2885,00	42,157
2886,00	42,031
2887,00	42,366
2888,00	41,849
2889,00	41,314
2890,00	40,960
2891,00	41,512
2892,00	42,353
2893,00	41,902
2894,00	41,024
2895,00	42,294
2896,00	42,149
2897,00	41,762
2898,00	41,523
2899,00	41,196
2900,00	41,488
2901,00	41,334
2902,00	41,549
2903,00	41,410
2904,00	41,642
2905,00	41,273
2906,00	40,890
2907,00	40,542
2908,00	40,755
2909,00	40,264
2910,00	40,442
2911,00	40,690
2912,00	40,514
2913,00	41,634
2914,00	41,448
2915,00	41,113
2916,00	41,210
2917,00	41,271
2918,00	41,416
2919,00	41,606
2920,00	41,271
2921,00	40,764
2922,00	41,399
2923,00	42,006
2924,00	41,818
2925,00	42,172
2926,00	41,815
2927,00	40,769
2928,00	41,319
2929,00	41,521
2930,00	41,659
2931,00	41,947
2932,00	41,623
2933,00	42,130
2934,00	41,015
2935,00	42,118
2936,00	42,405
2937,00	41,930
2938,00	41,950
2939,00	41,018
2940,00	41,341
2941,00	42,194
2942,00	41,756
2943,00	42,277
2944,00	41,698
2945,00	40,998
2946,00	41,863
2947,00	41,246
2948,00	42,477
2949,00	42,370
2950,00	42,260
2951,00	41,999
2952,00	41,598
2953,00	42,745
2954,00	41,873
2955,00	42,165
2956,00	43,017
2957,00	42,820
2958,00	42,761
2959,00	41,849
2960,00	42,026
2961,00	42,174
2962,00	41,879
2963,00	41,744
2964,00	42,291
2965,00	42,842
2966,00	42,271
2967,00	41,906
2968,00	42,303
2969,00	42,597
2970,00	42,604
2971,00	42,607
2972,00	43,350
2973,00	43,721
2974,00	43,392
2975,00	42,485
2976,00	42,677
2977,00	43,074
2978,00	43,458
2979,00	43,616
2980,00	42,565
2981,00	42,969
2982,00	42,171
2983,00	42,830
2984,00	42,107
2985,00	43,057
2986,00	42,727
2987,00	42,491
2988,00	42,822
2989,00	42,989
2990,00	41,234
2991,00	42,460
2992,00	42,492
2993,00	43,327
2994,00	42,721
2995,00	42,376
2996,00	42,729
2997,00	42,699
2998,00	42,863
2999,00	42,667
3000,00	43,370
3001,00	42,451
3002,00	42,215
3003,00	42,524
3004,00	42,166
3005,00	42,239
3006,00	42,062
3007,00	42,569
3008,00	42,613
3009,00	42,374
3010,00	42,487
3011,00	43,222
3012,00	42,248
3013,00	42,001
3014,00	43,996
3015,00	43,411
3016,00	43,659
3017,00	42,701
3018,00	41,813
3019,00	42,175
3020,00	42,540
3021,00	43,047
3022,00	43,074
3023,00	43,312
3024,00	42,739
3025,00	42,581
3026,00	43,322
3027,00	43,009
3028,00	41,991
3029,00	41,706
3030,00	43,366
3031,00	42,764
3032,00	42,307
3033,00	42,505
3034,00	43,022
3035,00	43,111
3036,00	41,488
3037,00	42,726
3038,00	41,555
3039,00	42,825
3040,00	42,252
3041,00	42,941
3042,00	42,680
3043,00	43,609
3044,00	43,036
3045,00	43,983
3046,00	43,856
3047,00	43,777
3048,00	43,209
3049,00	43,285
3050,00	42,572
3051,00	42,781
3052,00	43,096
3053,00	43,763
3054,00	44,249
3055,00	43,491
3056,00	43,248
3057,00	43,205
3058,00	43,654
3059,00	43,995
3060,00	44,038
3061,00	42,778
3062,00	41,146
3063,00	43,307
3064,00	43,538
3065,00	43,186
3066,00	43,178
3067,00	43,086
3068,00	43,247
3069,00	44,169
3070,00	43,085
3071,00	42,379
3072,00	42,466
3073,00	42,312
3074,00	42,624
3075,00	42,349
3076,00	42,636
3077,00	42,812
3078,00	42,808
3079,00	43,401
3080,00	42,810
3081,00	42,470
3082,00	42,755
3083,00	42,452
3084,00	42,135
3085,00	41,697
3086,00	43,318
3087,00	43,486
3088,00	43,950
3089,00	43,527
3090,00	44,171
3091,00	42,986
3092,00	43,985
3093,00	42,870
3094,00	42,664
3095,00	43,492
3096,00	42,407
3097,00	42,966
3098,00	43,558
3099,00	42,915
3100,00	42,498
3101,00	43,429
3102,00	43,862
3103,00	42,919
3104,00	41,719
3105,00	42,502
3106,00	43,819
3107,00	43,539
3108,00	43,045
3109,00	43,821
3110,00	43,675
3111,00	43,913
3112,00	44,126
3113,00	42,865
3114,00	44,001
3115,00	44,079
3116,00	43,361
3117,00	42,383
3118,00	42,646
3119,00	42,447
3120,00	41,403
3121,00	42,866
3122,00	44,029
3123,00	44,370
3124,00	43,777
3125,00	43,054
3126,00	43,866
3127,00	43,486
3128,00	44,059
3129,00	44,813
3130,00	44,376
3131,00	43,975
3132,00	43,849
3133,00	43,110
3134,00	44,168
3135,00	44,240
3136,00	44,975
3137,00	44,742
3138,00	44,901
3139,00	44,378
3140,00	44,455
3141,00	43,820
3142,00	44,315
3143,00	44,537
3144,00	44,823
3145,00	45,515
3146,00	43,832
3147,00	43,667
3148,00	42,918
3149,00	43,408
3150,00	43,973
3151,00	43,093
3152,00	44,451
3153,00	43,060
3154,00	44,116
3155,00	43,564
3156,00	44,165
3157,00	43,985
3158,00	45,189
3159,00	44,278
3160,00	44,672
3161,00	42,952
3162,00	42,831
3163,00	44,383
3164,00	43,812
3165,00	43,397
3166,00	44,473
3167,00	43,840
3168,00	45,626
3169,00	45,085
3170,00	43,991
3171,00	44,210
3172,00	44,866
3173,00	43,464
3174,00	44,352
3175,00	44,522
3176,00	44,368
3177,00	43,853
3178,00	45,548
3179,00	45,920
3180,00	44,864
3181,00	45,299
3182,00	46,002
3183,00	45,269
3184,00	45,117
3185,00	45,674
3186,00	44,579
3187,00	44,074
3188,00	44,822
3189,00	45,103
3190,00	45,091
3191,00	44,607
3192,00	44,582
3193,00	44,283
3194,00	44,006
3195,00	45,214
3196,00	45,834
3197,00	45,454
3198,00	45,665
3199,00	46,096
3200,00	45,426
3201,00	44,327
3202,00	45,786
3203,00	44,527
3204,00	44,502
3205,00	44,643
3206,00	43,206
3207,00	44,404
3208,00	44,595
3209,00	44,226
3210,00	44,889
3211,00	44,245
3212,00	43,402
3213,00	44,153
3214,00	43,697
3215,00	43,657
3216,00	44,167
3217,00	46,112
3218,00	45,924
3219,00	45,337
3220,00	44,593
3221,00	45,679
3222,00	46,072
3223,00	45,791
3224,00	45,375
3225,00	45,772
3226,00	46,681
3227,00	45,934
3228,00	46,206
3229,00	45,059
3230,00	46,562
3231,00	45,566
3232,00	46,538
3233,00	45,640
3234,00	46,667
3235,00	45,648
3236,00	45,849
3237,00	45,215
3238,00	46,514
3239,00	45,995
3240,00	46,715
3241,00	47,499
3242,00	45,519
3243,00	46,241
3244,00	46,637
3245,00	45,570
3246,00	45,776
3247,00	48,124
3248,00	45,352
3249,00	46,952
3250,00	46,948
3251,00	46,362
3252,00	46,039
3253,00	45,636
3254,00	45,731
3255,00	44,485
3256,00	45,905
3257,00	45,885
3258,00	46,576
3259,00	46,581
3260,00	45,924
3261,00	44,591
3262,00	46,143
3263,00	45,506
3264,00	45,490
3265,00	46,511
3266,00	45,426
3267,00	46,351
3268,00	46,364
3269,00	45,743
3270,00	47,680
3271,00	47,561
3272,00	47,940
3273,00	46,016
3274,00	46,404
3275,00	47,483
3276,00	46,765
3277,00	46,465
3278,00	47,085
3279,00	46,818
3280,00	46,831
3281,00	45,906
3282,00	47,151
3283,00	46,746
3284,00	47,181
3285,00	47,295
3286,00	46,431
3287,00	48,246
3288,00	46,389
3289,00	47,429
3290,00	46,194
3291,00	45,595
3292,00	48,445
3293,00	48,321
3294,00	46,611
3295,00	46,040
3296,00	46,734
3297,00	48,046
3298,00	47,499
3299,00	47,643
3300,00	47,991
3301,00	48,798
3302,00	47,731
3303,00	47,545
3304,00	47,951
3305,00	48,361
3306,00	46,970
3307,00	48,000
3308,00	47,870
3309,00	46,797
3310,00	49,338
3311,00	48,398
3312,00	47,894
3313,00	49,222
3314,00	47,680
3315,00	46,505
3316,00	48,009
3317,00	48,131
3318,00	48,150
3319,00	47,118
3320,00	48,322
3321,00	49,463
3322,00	48,105
3323,00	47,834
3324,00	48,358
3325,00	47,660
3326,00	48,392
3327,00	48,582
3328,00	47,158
3329,00	49,198
3330,00	48,892
3331,00	49,432
3332,00	47,485
3333,00	48,344
3334,00	48,229
3335,00	49,141
3336,00	48,100
3337,00	50,518
3338,00	50,068
3339,00	51,386
3340,00	50,380
3341,00	50,613
3342,00	50,020
3343,00	50,596
3344,00	50,794
3345,00	49,210
3346,00	50,582
3347,00	50,136
3348,00	51,118
3349,00	50,534
3350,00	49,614
3351,00	48,884
3352,00	48,390
3353,00	49,855
3354,00	48,223
3355,00	48,796
3356,00	49,183
3357,00	48,123
3358,00	48,878
3359,00	50,748
3360,00	48,966
3361,00	51,536
3362,00	49,944
3363,00	50,922
3364,00	49,776
3365,00	48,342
3366,00	48,360
3367,00	48,536
3368,00	50,705
3369,00	50,482
3370,00	49,968
3371,00	50,653
3372,00	50,126
3373,00	51,051
3374,00	50,808
3375,00	50,215
3376,00	48,627
3377,00	50,330
3378,00	50,235
3379,00	50,044
3380,00	49,461
3381,00	48,865
3382,00	48,585
3383,00	49,204
3384,00	50,028
3385,00	51,704
3386,00	52,547
3387,00	51,054
3388,00	50,986
3389,00	52,152
3390,00	52,217
3391,00	52,257
3392,00	53,037
3393,00	52,108
3394,00	50,614
3395,00	50,302
3396,00	50,149
3397,00	50,660
3398,00	50,860
3399,00	49,752
3400,00	49,117
3401,00	51,158
3402,00	51,976
3403,00	49,519
3404,00	51,955
3405,00	50,746
3406,00	48,587
3407,00	47,922
3408,00	51,391
3409,00	49,666
3410,00	50,698
3411,00	51,367
3412,00	51,480
3413,00	49,260
3414,00	52,140
3415,00	50,022
3416,00	50,767
3417,00	50,848
3418,00	52,127
3419,00	50,529
3420,00	51,750
3421,00	51,156
3422,00	52,599
3423,00	50,793
3424,00	49,972
3425,00	52,635
3426,00	52,695
3427,00	52,371
3428,00	52,288
3429,00	49,578
3430,00	50,463
3431,00	49,456
3432,00	52,422
3433,00	49,660
3434,00	50,459
3435,00	51,804
3436,00	49,702
3437,00	53,434
3438,00	49,073
3439,00	50,416
3440,00	49,713
3441,00	50,313
3442,00	49,206
3443,00	48,176
3444,00	51,991
3445,00	49,634
3446,00	53,111
3447,00	52,094
3448,00	52,144
3449,00	51,796
3450,00	53,580
3451,00	51,594
3452,00	47,182
3453,00	50,420
3454,00	51,528
3455,00	52,556
3456,00	51,875
3457,00	51,595
3458,00	52,305
3459,00	51,355
3460,00	49,768
3461,00	50,590
3462,00	49,954
3463,00	55,579
3464,00	50,184
3465,00	50,695
3466,00	51,778
3467,00	53,613
3468,00	55,416
3469,00	51,611
3470,00	50,179
3471,00	53,084
3472,00	52,858
3473,00	52,320
3474,00	51,074
3475,00	52,584
3476,00	52,098
3477,00	53,205
3478,00	53,406
3479,00	55,291
3480,00	50,905
3481,00	48,809
3482,00	55,185
3483,00	54,280
3484,00	52,099
3485,00	51,003
3486,00	53,417
3487,00	51,664
3488,00	50,431
3489,00	51,726
3490,00	54,395
3491,00	52,374
3492,00	52,197
3493,00	53,303
3494,00	52,098
3495,00	51,512
3496,00	51,148
3497,00	51,901
3498,00	54,586
3499,00	53,301
3500,00	53,461
3501,00	52,129
3502,00	52,844
3503,00	50,323
3504,00	52,807
3505,00	50,983
3506,00	50,475
3507,00	51,573
3508,00	52,997
3509,00	49,660
3510,00	50,155
3511,00	53,658
3512,00	53,869
3513,00	50,874
3514,00	50,442
3515,00	52,445
3516,00	53,975
3517,00	55,006
3518,00	51,240
3519,00	54,955
3520,00	52,607
3521,00	53,705
3522,00	50,936
3523,00	54,541
3524,00	46,802
3525,00	48,963
3526,00	48,640
3527,00	51,746
3528,00	49,938
3529,00	58,063
3530,00	55,719
3531,00	53,310
3532,00	52,734
3533,00	52,883
3534,00	48,294
3535,00	49,391
3536,00	51,816
3537,00	54,998
3538,00	49,732
3539,00	49,746
3540,00	51,164
3541,00	52,591
3542,00	53,058
3543,00	56,166
3544,00	50,417
3545,00	50,107
3546,00	50,382
3547,00	54,920
3548,00	52,550
3549,00	54,764
3550,00	55,054
3551,00	52,050
3552,00	43,735
3553,00	51,309
3554,00	51,188
3555,00	51,150
3556,00	53,737
3557,00	49,033
3558,00	53,054
3559,00	45,815
3560,00	53,037
3561,00	53,306
3562,00	49,605
3563,00	51,729
3564,00	50,836
3565,00	51,956
3566,00	51,749
3567,00	52,524
3568,00	50,781
3569,00	48,917
3570,00	52,700
3571,00	51,602
3572,00	53,239
3573,00	53,607
3574,00	54,688
3575,00	51,862
3576,00	50,429
3577,00	49,215
3578,00	55,506
3579,00	52,899
3580,00	56,788
3581,00	46,920
3582,00	52,721
3583,00	57,321
3584,00	53,037
3585,00	48,923
3586,00	51,025
3587,00	51,880
3588,00	53,824
3589,00	52,489
3590,00	59,493
3591,00	51,585
3592,00	55,391
3593,00	52,893
3594,00	53,178
3595,00	56,658
3596,00	51,524
3597,00	53,666
3598,00	46,218
3599,00	52,360
3600,00	53,481
3601,00	52,968
3602,00	54,442
3603,00	50,011
3604,00	52,764
3605,00	56,175
3606,00	48,202
3607,00	49,847
3608,00	49,300
3609,00	56,235
3610,00	53,402
3611,00	59,120
3612,00	54,144
3613,00	47,136
3614,00	52,748
3615,00	52,635
3616,00	49,904
3617,00	52,197
3618,00	50,693
3619,00	45,345
3620,00	50,900
3621,00	47,906
3622,00	47,744
3623,00	55,079
3624,00	55,766
3625,00	49,433
3626,00	46,830
3627,00	52,124
3628,00	49,037
3629,00	59,345
3630,00	49,667
3631,00	49,936
3632,00	48,242
3633,00	57,863
3634,00	49,028
3635,00	61,276
3636,00	50,662
3637,00	51,357
3638,00	53,944
3639,00	52,030
3640,00	51,922
3641,00	50,787
3642,00	54,502
3643,00	57,350
3644,00	48,562
3645,00	50,522
3646,00	46,954
3647,00	59,007
>>>>>Finisci Dati dello Spettro Elaborati<<<<<
